Folder: read-step-heights

Note: README.md
# Read Step Heights for Electrochemical Collision Experiment Using Python
You can directly open the code in Google Colab: [![Open In Colab](https://colab.research.google.com/assets/colab-badge.svg)](https://colab.research.google.com/github/Boika-Lab/read-step-heights/blob/main/readStepHeights.ipynb)

Watch the video for explanation of the problem and code: 
<p><a href="https://youtu.be/BABJj7U0BAU"><img src=images/thumbnail.png width="750"></a></p>

File: i-t_example1.txt
Oct. 19, 2022   13:05:27
Amperometric i-t Curve
File: f:\Data Source:  Experiment
Instrument Model:  CHI760E
Ref. Electrode:
Header:
Note:

Init E (V) = 0.5
Sample Interval (s) = 0.1
Run Time (sec) = 150
Quiet Time (sec) = 0.2
Sensitivity (A/V) = 1e-9

Time/sec, Current/A

1.00000e-1, -3.20723e-9
6.00000e-1, -3.12859e-9
1.10000e+0, -3.08962e-9
1.60000e+0, -3.06506e-9
2.10000e+0, -3.04760e-9
2.60000e+0, -3.03483e-9
3.10000e+0, -3.02484e-9
3.60000e+0, -3.01659e-9
4.10000e+0, -3.00968e-9
4.60000e+0, -3.00387e-9
5.10000e+0, -2.99893e-9
5.60000e+0, -2.99445e-9
6.10000e+0, -2.99038e-9
6.60000e+0, -2.98710e-9
7.10000e+0, -2.98366e-9
7.60000e+0, -2.98056e-9
8.09999e+0, -2.97794e-9
8.60000e+0, -2.97545e-9
9.10000e+0, -2.97342e-9
9.60000e+0, -2.97086e-9
1.01000e+1, -2.96906e-9
1.06000e+1, -2.96693e-9
1.11000e+1, -2.96540e-9
1.16000e+1, -2.96378e-9
1.21000e+1, -2.96236e-9
1.26000e+1, -2.96025e-9
1.31000e+1, -2.95937e-9
1.36000e+1, -2.95755e-9
1.41000e+1, -2.95643e-9
1.46000e+1, -2.95523e-9
1.51000e+1, -2.95370e-9
1.56000e+1, -2.95309e-9
1.61000e+1, -2.95173e-9
1.66000e+1, -2.95058e-9
1.71000e+1, -2.94951e-9
1.76000e+1, -2.94861e-9
1.81000e+1, -2.94741e-9
1.86000e+1, -2.94674e-9
1.91000e+1, -2.94585e-9
1.96000e+1, -2.94519e-9
2.01000e+1, -2.94419e-9
2.06000e+1, -2.94342e-9
2.11000e+1, -2.94281e-9
2.16000e+1, -2.94184e-9
2.21000e+1, -2.94096e-9
2.26000e+1, -2.94043e-9
2.31001e+1, -2.93953e-9
2.36001e+1, -2.93853e-9
2.41001e+1, -2.93808e-9
2.46001e+1, -2.93756e-9
2.51001e+1, -2.93683e-9
2.56001e+1, -2.93629e-9
2.61001e+1, -2.93589e-9
2.66001e+1, -2.93494e-9
2.71001e+1, -2.93420e-9
2.76001e+1, -2.93379e-9
2.81001e+1, -2.93310e-9
2.86001e+1, -2.93245e-9
2.91001e+1, -2.93191e-9
2.96001e+1, -2.93166e-9
3.01001e+1, -2.93102e-9
3.06001e+1, -2.93041e-9
3.11001e+1, -2.92983e-9
3.16001e+1, -2.92956e-9
3.21001e+1, -2.92907e-9
3.26001e+1, -2.92847e-9
3.31001e+1, -2.92802e-9
3.36001e+1, -2.92771e-9
3.41001e+1, -2.92738e-9
3.46000e+1, -2.92688e-9
3.51000e+1, -2.92631e-9
3.56000e+1, -2.92573e-9
3.61000e+1, -2.92544e-9
3.66000e+1, -2.92506e-9
3.71000e+1, -2.92470e-9
3.76000e+1, -2.92432e-9
3.81000e+1, -2.92392e-9
3.86000e+1, -2.92359e-9
3.91000e+1, -2.92283e-9
3.96000e+1, -2.92250e-9
4.01000e+1, -2.92216e-9
4.06000e+1, -2.92198e-9
4.10999e+1, -2.92178e-9
4.15999e+1, -2.92111e-9
4.20999e+1, -2.92070e-9
4.25999e+1, -2.92012e-9
4.30999e+1, -2.92007e-9
4.35999e+1, -2.91935e-9
4.40999e+1, -2.91952e-9
4.45999e+1, -2.91877e-9
4.50999e+1, -2.91847e-9
4.55999e+1, -2.91798e-9
4.60999e+1, -2.91812e-9
4.65999e+1, -2.91766e-9
4.70999e+1, -2.91717e-9
4.75998e+1, -2.91704e-9
4.80998e+1, -2.91661e-9
4.85998e+1, -2.91628e-9
4.90998e+1, -2.91574e-9
4.95998e+1, -2.91366e-9
5.00998e+1, -2.90952e-9
5.05998e+1, -2.90943e-9
5.10998e+1, -2.90904e-9
5.15998e+1, -2.90878e-9
5.20998e+1, -2.90874e-9
5.25998e+1, -2.90859e-9
5.30998e+1, -2.90833e-9
5.35998e+1, -2.90803e-9
5.40997e+1, -2.90770e-9
5.45997e+1, -2.90713e-9
5.50997e+1, -2.90087e-9
5.55997e+1, -2.90067e-9
5.60997e+1, -2.90039e-9
5.65997e+1, -2.89997e-9
5.70997e+1, -2.89979e-9
5.75997e+1, -2.89965e-9
5.80997e+1, -2.89952e-9
5.85997e+1, -2.89920e-9
5.90997e+1, -2.89902e-9
5.95997e+1, -2.89883e-9
6.00997e+1, -2.89842e-9
6.05996e+1, -2.89841e-9
6.10996e+1, -2.89793e-9
6.15996e+1, -2.89774e-9
6.20996e+1, -2.89764e-9
6.25996e+1, -2.89718e-9
6.30996e+1, -2.89705e-9
6.35996e+1, -2.89698e-9
6.40996e+1, -2.89693e-9
6.45996e+1, -2.89631e-9
6.50996e+1, -2.89597e-9
6.55996e+1, -2.89598e-9
6.60996e+1, -2.89578e-9
6.65996e+1, -2.89538e-9
6.70995e+1, -2.89484e-9
6.75995e+1, -2.89511e-9
6.80995e+1, -2.89476e-9
6.85995e+1, -2.89460e-9
6.90995e+1, -2.89443e-9
6.95995e+1, -2.89417e-9
7.00995e+1, -2.89367e-9
7.05995e+1, -2.89355e-9
7.10995e+1, -2.89317e-9
7.15995e+1, -2.89326e-9
7.20995e+1, -2.89163e-9
7.25995e+1, -2.89152e-9
7.30995e+1, -2.89143e-9
7.35994e+1, -2.88731e-9
7.40994e+1, -2.88673e-9
7.45994e+1, -2.88672e-9
7.50994e+1, -2.88642e-9
7.55994e+1, -2.88652e-9
7.60994e+1, -2.88563e-9
7.65994e+1, -2.88512e-9
7.70994e+1, -2.87972e-9
7.75994e+1, -2.87962e-9
7.80994e+1, -2.87921e-9
7.85994e+1, -2.87917e-9
7.90994e+1, -2.87856e-9
7.95994e+1, -2.87851e-9
8.00993e+1, -2.87838e-9
8.05993e+1, -2.87813e-9
8.10993e+1, -2.87792e-9
8.15993e+1, -2.87778e-9
8.20993e+1, -2.87769e-9
8.25993e+1, -2.87744e-9
8.30993e+1, -2.87739e-9
8.35993e+1, -2.87706e-9
8.40993e+1, -2.87718e-9
8.45993e+1, -2.87696e-9
8.50993e+1, -2.87643e-9
8.55993e+1, -2.87649e-9
8.60993e+1, -2.87612e-9
8.65993e+1, -2.87267e-9
8.70992e+1, -2.86856e-9
8.75992e+1, -2.86877e-9
8.80992e+1, -2.86891e-9
8.85992e+1, -2.86817e-9
8.90992e+1, -2.86838e-9
8.95992e+1, -2.86810e-9
9.00992e+1, -2.86804e-9
9.05992e+1, -2.86808e-9
9.10992e+1, -2.86786e-9
9.15992e+1, -2.86772e-9
9.20992e+1, -2.86741e-9
9.25992e+1, -2.86152e-9
9.30992e+1, -2.86123e-9
9.35991e+1, -2.86117e-9
9.40991e+1, -2.86130e-9
9.45991e+1, -2.86143e-9
9.50991e+1, -2.86129e-9
9.55991e+1, -2.86160e-9
9.60991e+1, -2.86067e-9
9.65991e+1, -2.86045e-9
9.70991e+1, -2.85997e-9
9.75991e+1, -2.86017e-9
9.80991e+1, -2.86010e-9
9.85991e+1, -2.85968e-9
9.90991e+1, -2.85966e-9
9.95991e+1, -2.85947e-9
1.00099e+2, -2.85938e-9
1.00599e+2, -2.85901e-9
1.01099e+2, -2.85895e-9
1.01599e+2, -2.85881e-9
1.02099e+2, -2.85871e-9
1.02599e+2, -2.85875e-9
1.03099e+2, -2.85823e-9
1.03599e+2, -2.85808e-9
1.04099e+2, -2.85803e-9
1.04599e+2, -2.85793e-9
1.05099e+2, -2.85772e-9
1.05599e+2, -2.85486e-9
1.06099e+2, -2.85271e-9
1.06599e+2, -2.85255e-9
1.07099e+2, -2.85248e-9
1.07599e+2, -2.85271e-9
1.08099e+2, -2.85265e-9
1.08599e+2, -2.85241e-9
1.09099e+2, -2.85247e-9
1.09599e+2, -2.85228e-9
1.10099e+2, -2.85238e-9
1.10599e+2, -2.85210e-9
1.11099e+2, -2.85203e-9
1.11599e+2, -2.85181e-9
1.12099e+2, -2.85178e-9
1.12599e+2, -2.85107e-9
1.13099e+2, -2.85095e-9
1.13599e+2, -2.85075e-9
1.14099e+2, -2.85089e-9
1.14599e+2, -2.85076e-9
1.15099e+2, -2.85033e-9
1.15599e+2, -2.84839e-9
1.16099e+2, -2.84533e-9
1.16599e+2, -2.84468e-9
1.17099e+2, -2.84490e-9
1.17599e+2, -2.84475e-9
1.18099e+2, -2.83798e-9
1.18599e+2, -2.83896e-9
1.19099e+2, -2.83863e-9
1.19599e+2, -2.83872e-9
1.20099e+2, -2.83874e-9
1.20599e+2, -2.83859e-9
1.21099e+2, -2.83841e-9
1.21599e+2, -2.83830e-9
1.22099e+2, -2.83852e-9
1.22599e+2, -2.83824e-9
1.23099e+2, -2.83802e-9
1.23599e+2, -2.83812e-9
1.24099e+2, -2.83787e-9
1.24599e+2, -2.83789e-9
1.25099e+2, -2.83775e-9
1.25599e+2, -2.83742e-9
1.26099e+2, -2.83713e-9
1.26599e+2, -2.83730e-9
1.27099e+2, -2.83715e-9
1.27599e+2, -2.83693e-9
1.28099e+2, -2.83700e-9
1.28599e+2, -2.83690e-9
1.29099e+2, -2.83632e-9
1.29599e+2, -2.83660e-9
1.30099e+2, -2.83608e-9
1.30599e+2, -2.83635e-9
1.31099e+2, -2.83634e-9
1.31599e+2, -2.83609e-9
1.32099e+2, -2.83591e-9
1.32599e+2, -2.83581e-9
1.33099e+2, -2.83608e-9
1.33599e+2, -2.83541e-9
1.34099e+2, -2.83554e-9
1.34599e+2, -2.83545e-9
1.35099e+2, -2.83524e-9
1.35599e+2, -2.83535e-9
1.36099e+2, -2.83508e-9
1.36599e+2, -2.83516e-9
1.37099e+2, -2.83501e-9
1.37599e+2, -2.83456e-9
1.38099e+2, -2.83491e-9
1.38599e+2, -2.83436e-9
1.39099e+2, -2.83460e-9
1.39599e+2, -2.83423e-9
1.40099e+2, -2.83458e-9
1.40599e+2, -2.83419e-9
1.41099e+2, -2.83375e-9
1.41599e+2, -2.83386e-9
1.42099e+2, -2.83386e-9
1.42600e+2, -2.83377e-9
1.43100e+2, -2.83323e-9
1.43600e+2, -2.83338e-9
1.44100e+2, -2.83342e-9
1.44600e+2, -2.83340e-9
1.45100e+2, -2.83314e-9
1.45600e+2, -2.83327e-9
1.46100e+2, -2.83305e-9
1.46600e+2, -2.83269e-9
1.47100e+2, -2.83275e-9
1.47600e+2, -2.83238e-9
1.48100e+2, -2.83256e-9
1.48600e+2, -2.83230e-9
1.49100e+2, -2.83208e-9
1.49600e+2, -2.83256e-9
1.50000e+2, -2.83210e-9

File: i-t_example2.txt
Oct. 19, 2022   12:46:34
Amperometric i-t Curve
File: f:\Data Source:  Experiment
Instrument Model:  CHI760E
Ref. Electrode:
Header:
Note:

Init E (V) = 0.5
Sample Interval (s) = 0.1
Run Time (sec) = 50
Quiet Time (sec) = 0.2
Sensitivity (A/V) = 1e-9

Time/sec, Current/A

1.00000e-1, -3.20028e-9
3.00000e-1, -3.14221e-9
5.00000e-1, -3.10466e-9
7.00000e-1, -3.07789e-9
9.00000e-1, -3.05772e-9
1.10000e+0, -3.04113e-9
1.30000e+0, -3.02839e-9
1.50000e+0, -3.01714e-9
1.70000e+0, -3.00795e-9
1.90000e+0, -2.99996e-9
2.10000e+0, -2.99252e-9
2.30000e+0, -2.98679e-9
2.50000e+0, -2.98039e-9
2.70000e+0, -2.97572e-9
2.90000e+0, -2.97099e-9
3.10000e+0, -2.96662e-9
3.30000e+0, -2.96311e-9
3.50000e+0, -2.95938e-9
3.70000e+0, -2.95568e-9
3.90000e+0, -2.95296e-9
4.10000e+0, -2.94991e-9
4.30000e+0, -2.94692e-9
4.50000e+0, -2.94461e-9
4.70000e+0, -2.94207e-9
4.90000e+0, -2.93937e-9
5.10000e+0, -2.93715e-9
5.30000e+0, -2.93537e-9
5.50000e+0, -2.93329e-9
5.70000e+0, -2.93154e-9
5.90000e+0, -2.92979e-9
6.10000e+0, -2.92795e-9
6.30000e+0, -2.92633e-9
6.50000e+0, -2.92479e-9
6.70000e+0, -2.92327e-9
6.90000e+0, -2.92180e-9
7.10000e+0, -2.91998e-9
7.30000e+0, -2.91887e-9
7.50000e+0, -2.91787e-9
7.70000e+0, -2.91653e-9
7.89999e+0, -2.91496e-9
8.09999e+0, -2.91391e-9
8.30000e+0, -2.91260e-9
8.50000e+0, -2.91141e-9
8.70000e+0, -2.90697e-9
8.90000e+0, -2.89919e-9
9.10000e+0, -2.89167e-9
9.30000e+0, -2.89110e-9
9.50000e+0, -2.89006e-9
9.70000e+0, -2.88942e-9
9.90000e+0, -2.88810e-9
1.01000e+1, -2.88761e-9
1.03000e+1, -2.88677e-9
1.05000e+1, -2.88606e-9
1.07000e+1, -2.88515e-9
1.09000e+1, -2.88396e-9
1.11000e+1, -2.88316e-9
1.13000e+1, -2.88289e-9
1.15000e+1, -2.88194e-9
1.17000e+1, -2.88169e-9
1.19000e+1, -2.88099e-9
1.21000e+1, -2.87579e-9
1.23000e+1, -2.87298e-9
1.25000e+1, -2.87275e-9
1.27000e+1, -2.87001e-9
1.29000e+1, -2.86918e-9
1.31000e+1, -2.86833e-9
1.33000e+1, -2.86778e-9
1.35000e+1, -2.86169e-9
1.37000e+1, -2.86115e-9
1.39000e+1, -2.86045e-9
1.41000e+1, -2.86033e-9
1.43000e+1, -2.85961e-9
1.45000e+1, -2.85896e-9
1.47000e+1, -2.85809e-9
1.49000e+1, -2.85792e-9
1.51000e+1, -2.85737e-9
1.53000e+1, -2.85672e-9
1.55000e+1, -2.85505e-9
1.57000e+1, -2.84998e-9
1.59000e+1, -2.84994e-9
1.61000e+1, -2.84979e-9
1.63000e+1, -2.84909e-9
1.65000e+1, -2.84860e-9
1.67000e+1, -2.84869e-9
1.69000e+1, -2.84790e-9
1.71000e+1, -2.84752e-9
1.73000e+1, -2.84713e-9
1.75000e+1, -2.84660e-9
1.77000e+1, -2.84598e-9
1.79000e+1, -2.84623e-9
1.81000e+1, -2.84547e-9
1.83000e+1, -2.84496e-9
1.85000e+1, -2.84488e-9
1.87000e+1, -2.84432e-9
1.89000e+1, -2.84383e-9
1.91000e+1, -2.84353e-9
1.93000e+1, -2.84338e-9
1.95000e+1, -2.84279e-9
1.97000e+1, -2.84245e-9
1.99000e+1, -2.84177e-9
2.01000e+1, -2.84183e-9
2.03000e+1, -2.84111e-9
2.05000e+1, -2.84115e-9
2.07000e+1, -2.84053e-9
2.09000e+1, -2.84004e-9
2.11000e+1, -2.84003e-9
2.13000e+1, -2.83979e-9
2.15000e+1, -2.83932e-9
2.17000e+1, -2.83924e-9
2.19000e+1, -2.83828e-9
2.21000e+1, -2.83843e-9
2.23000e+1, -2.83803e-9
2.25000e+1, -2.83756e-9
2.27001e+1, -2.83724e-9
2.29001e+1, -2.83730e-9
2.31001e+1, -2.83658e-9
2.33001e+1, -2.83653e-9
2.35001e+1, -2.83629e-9
2.37001e+1, -2.83576e-9
2.39001e+1, -2.83572e-9
2.41001e+1, -2.83536e-9
2.43001e+1, -2.83526e-9
2.45001e+1, -2.83483e-9
2.47001e+1, -2.83462e-9
2.49001e+1, -2.83428e-9
2.51001e+1, -2.83362e-9
2.53001e+1, -2.83359e-9
2.55001e+1, -2.83297e-9
2.57001e+1, -2.83289e-9
2.59001e+1, -2.83260e-9
2.61001e+1, -2.83216e-9
2.63001e+1, -2.83222e-9
2.65001e+1, -2.83181e-9
2.67001e+1, -2.83164e-9
2.69001e+1, -2.83133e-9
2.71001e+1, -2.83108e-9
2.73001e+1, -2.83077e-9
2.75001e+1, -2.83037e-9
2.77001e+1, -2.83028e-9
2.79001e+1, -2.83002e-9
2.81001e+1, -2.82978e-9
2.83001e+1, -2.82942e-9
2.85001e+1, -2.82932e-9
2.87001e+1, -2.82906e-9
2.89001e+1, -2.82854e-9
2.91001e+1, -2.82886e-9
2.93001e+1, -2.82867e-9
2.95001e+1, -2.82829e-9
2.97001e+1, -2.82806e-9
2.99001e+1, -2.82758e-9
3.01001e+1, -2.82734e-9
3.03001e+1, -2.82731e-9
3.05001e+1, -2.82716e-9
3.07001e+1, -2.82667e-9
3.09001e+1, -2.82672e-9
3.11001e+1, -2.82652e-9
3.13001e+1, -2.82603e-9
3.15001e+1, -2.82523e-9
3.17001e+1, -2.82556e-9
3.19001e+1, -2.82553e-9
3.21001e+1, -2.82515e-9
3.23001e+1, -2.82494e-9
3.25001e+1, -2.82482e-9
3.27001e+1, -2.82467e-9
3.29001e+1, -2.82464e-9
3.31001e+1, -2.82446e-9
3.33001e+1, -2.82367e-9
3.35001e+1, -2.82369e-9
3.37001e+1, -2.82355e-9
3.39001e+1, -2.82362e-9
3.41001e+1, -2.82312e-9
3.43000e+1, -2.82298e-9
3.45000e+1, -2.82269e-9
3.47000e+1, -2.82247e-9
3.49000e+1, -2.82229e-9
3.51000e+1, -2.82236e-9
3.53000e+1, -2.82204e-9
3.55000e+1, -2.82139e-9
3.57000e+1, -2.82156e-9
3.59000e+1, -2.82143e-9
3.61000e+1, -2.82136e-9
3.63000e+1, -2.82107e-9
3.65000e+1, -2.81486e-9
3.67000e+1, -2.81522e-9
3.69000e+1, -2.81538e-9
3.71000e+1, -2.81512e-9
3.73000e+1, -2.81482e-9
3.75000e+1, -2.81511e-9
3.77000e+1, -2.81462e-9
3.79000e+1, -2.81459e-9
3.81000e+1, -2.81455e-9
3.83000e+1, -2.81438e-9
3.85000e+1, -2.81463e-9
3.87000e+1, -2.81416e-9
3.89000e+1, -2.81358e-9
3.91000e+1, -2.81376e-9
3.93000e+1, -2.81364e-9
3.95000e+1, -2.81328e-9
3.97000e+1, -2.81338e-9
3.99000e+1, -2.81312e-9
4.01000e+1, -2.81318e-9
4.03000e+1, -2.81263e-9
4.05000e+1, -2.81248e-9
4.07000e+1, -2.81273e-9
4.08999e+1, -2.81216e-9
4.10999e+1, -2.81186e-9
4.12999e+1, -2.81132e-9
4.14999e+1, -2.81111e-9
4.16999e+1, -2.81125e-9
4.18999e+1, -2.81103e-9
4.20999e+1, -2.81098e-9
4.22999e+1, -2.81085e-9
4.24999e+1, -2.81098e-9
4.26999e+1, -2.81063e-9
4.28999e+1, -2.81041e-9
4.30999e+1, -2.81025e-9
4.32999e+1, -2.81045e-9
4.34999e+1, -2.81018e-9
4.36999e+1, -2.81014e-9
4.38999e+1, -2.81000e-9
4.40999e+1, -2.81025e-9
4.42999e+1, -2.80983e-9
4.44999e+1, -2.80957e-9
4.46999e+1, -2.80927e-9
4.48999e+1, -2.80915e-9
4.50999e+1, -2.80810e-9
4.52999e+1, -2.80483e-9
4.54999e+1, -2.80509e-9
4.56999e+1, -2.80508e-9
4.58999e+1, -2.80475e-9
4.60999e+1, -2.80485e-9
4.62999e+1, -2.80534e-9
4.64999e+1, -2.80450e-9
4.66999e+1, -2.80458e-9
4.68999e+1, -2.80466e-9
4.70999e+1, -2.80413e-9
4.72999e+1, -2.80404e-9
4.74998e+1, -2.80416e-9
4.76998e+1, -2.80402e-9
4.78998e+1, -2.80389e-9
4.80998e+1, -2.80399e-9
4.82998e+1, -2.80338e-9
4.84998e+1, -2.80340e-9
4.86998e+1, -2.80322e-9
4.88998e+1, -2.80324e-9
4.90998e+1, -2.80309e-9
4.92998e+1, -2.80275e-9
4.94998e+1, -2.80298e-9
4.96998e+1, -2.80257e-9
4.98998e+1, -2.80242e-9
4.99998e+1, -2.80268e-9